Folder: fp2-fu/raman/M9/data

Note: raman/M9/data/2nd_Stokespeak_Si.txt
559.04  1.6352E+002
 559.09  1.6022E+002
 559.14  1.6042E+002
 559.19  1.5930E+002
 559.24  1.6391E+002
 559.29  1.7045E+002
 559.34  1.7558E+002
 559.39  1.8101E+002
 559.44  1.8555E+002
 559.49  1.9025E+002
 559.54  1.9406E+002
 559.59  1.9721E+002
 559.64  1.9420E+002
 559.69  1.9785E+002
 559.74  2.0646E+002
 559.79  2.1460E+002
 559.84  2.2517E+002
 559.89  2.4354E+002
 559.94  2.5456E+002
 559.99  2.6193E+002
 560.04  2.7162E+002
 560.09  2.7737E+002
 560.14  2.7891E+002
 560.19  2.7938E+002
 560.24  2.7901E+002
 560.29  2.7672E+002
 560.34  2.7794E+002
 560.39  2.8077E+002
 560.43  2.8734E+002
 560.48  2.9404E+002
 560.53  3.0490E+002
 560.58  3.1070E+002
 560.63  3.1035E+002
 560.68  3.1083E+002
 560.73  3.0956E+002
 560.78  3.0152E+002
 560.83  2.9604E+002
 560.88  2.9495E+002
 560.93  2.9260E+002
 560.98  2.9496E+002
 561.03  3.0182E+002
 561.08  3.0479E+002
 561.13  3.0377E+002
 561.18  3.0215E+002
 561.23  2.9861E+002
 561.28  2.9540E+002
 561.33  2.9216E+002
 561.38  2.9147E+002
 561.43  2.8799E+002
 561.48  2.7883E+002
 561.53  2.6564E+002
 561.58  2.5422E+002
 561.63  2.4229E+002
 561.68  2.3369E+002
 561.73  2.2721E+002
 561.78  2.2203E+002
 561.83  2.1679E+002
 561.88  2.1283E+002
 561.93  2.0793E+002
 561.98  2.0133E+002
 562.03  1.9034E+002
 562.08  1.8130E+002
 562.13  1.7329E+002
 562.18  1.6513E+002
 562.23  1.6232E+002
 562.28  1.7085E+002
 562.33  1.8071E+002
 562.38  1.8178E+002
 562.43  1.7563E+002
 562.48  1.6921E+002
 562.53  1.6091E+002
 562.58  1.5349E+002
 562.63  1.5617E+002
 562.68  1.6731E+002
 562.73  1.7631E+002
 562.78  1.7730E+002
 562.83  1.7341E+002
 562.88  1.6707E+002
 562.93  1.5621E+002
 562.98  1.4368E+002
 563.03  1.3735E+002

Note: raman/M9/data/Antistokespeak_CaF2.txt
522.53  2.2827E+002
522.58  2.3594E+002
522.63  2.2981E+002
522.68  2.2927E+002
522.73  2.3494E+002
522.78  2.4181E+002
522.83  2.5574E+002
522.88  2.9527E+002
522.93  3.3867E+002
522.98  3.7541E+002
523.03  3.9961E+002
523.08  4.0847E+002
523.13  3.8801E+002
523.18  3.4474E+002
523.23  3.0227E+002
523.28  2.7694E+002
523.33  2.6094E+002
523.38  2.5134E+002
523.43  2.4461E+002
523.49  2.3134E+002
523.54  2.1327E+002

Note: raman/M9/data/Antistokespeak_Si.txt
517.00  1.9457E+002
 517.05  1.9739E+002
 517.10  1.9702E+002
 517.15  1.9574E+002
 517.20  1.9510E+002
 517.25  1.9584E+002
 517.30  2.0219E+002
 517.35  2.2291E+002
 517.40  2.6673E+002
 517.45  3.4291E+002
 517.50  4.5540E+002
 517.55  5.8682E+002
 517.60  6.9921E+002
 517.65  7.6227E+002
 517.70  7.6175E+002
 517.75  6.9718E+002
 517.80  5.9133E+002
 517.85  4.7719E+002
 517.90  3.7980E+002
 517.95  3.0763E+002
 518.00  2.5776E+002
 518.05  2.2456E+002
 518.10  2.0706E+002
 518.15  1.9917E+002
 518.20  1.9338E+002
 518.25  1.9268E+002
 518.30  1.9604E+002
 518.35  1.9728E+002
 518.40  1.9479E+002
 518.45  1.8788E+002
 518.50  1.8090E+002

Note: raman/M9/data/peaks.txt
Silicium
" File: Documents and Settings\ramantut\Desktop\
" SCOPE->  Wave:540.55nm  Pix:840  Val:398.423  Time:60000ms  Avg:3  Sm:1  Sg:0  Tc:off  Xt:3  Ch:1 

Peaks

532.34  1.6052E+004
547.19  3.8581E+003
FWHM: 0,4	547.39  2.0140E+003 
		546.99  1.6912E+003

517.65  7.6227E+002
FWHM: 0.5	517.90  3.7980E+002
		517.45  3.4291E+002

560.68  3.1083E+002
FWHM: 3.1		559.19  1.5930E+002
		562.23  1.6232E+002

Graphit
" File: Documents and Settings\ramantut\Desktop\
" SCOPE->  Wave:531.87nm  Pix:668  Val:15309.079  Time:60000ms  Avg:1  Sm:1  Sg:0  Tc:off  Xt:3  Ch:1 

Peaks

532.38  1.6021E+004
580.08  1.0075E+003
FWHM: 0.3	579.88  4.2528E+002
		580.18  3.7088E+002


CaF2
" File: Documents and Settings\ramantut\Desktop\
" SCOPE->  Wave:531.87nm  Pix:668  Val:15312.540  Time:60000ms  Avg:1  Sm:1  Sg:0  Tc:off  Xt:3  Ch:1 

Peaks
532.38  1.6023E+004
541.31  9.5354E+002
FWHM: 0.7	540.96  4.4274E+002
		541.66  4.5641E+002

523.08  4.0847E+002
FWHM: 1.2	522.37  2.0521E+002
		523.59  1.9967E+002

Note: raman/M9/data/Plot_Laserpeak_CaF2.txt
520.00  1.4901E+002
520.05  1.5147E+002
520.10  1.5867E+002
520.15  1.7121E+002
520.20  1.8481E+002
520.25  1.8934E+002
520.30  1.9487E+002
520.35  1.9847E+002
520.40  1.9627E+002
520.45  1.8707E+002
520.50  1.7901E+002
520.55  1.6381E+002
520.60  1.5487E+002
520.65  1.4521E+002
520.71  1.3974E+002
520.76  1.4181E+002
520.81  1.5021E+002
520.86  1.5347E+002
520.91  1.5947E+002
520.96  1.6174E+002
521.01  1.6487E+002
521.06  1.6894E+002
521.11  1.6581E+002
521.16  1.6441E+002
521.21  1.6721E+002
521.26  1.6514E+002
521.31  1.6661E+002
521.36  1.7721E+002
521.41  1.8674E+002
521.46  1.9354E+002
521.51  2.0034E+002
521.56  1.9341E+002
521.62  1.8414E+002
521.67  1.7454E+002
521.72  1.6414E+002
521.77  1.5774E+002
521.82  1.6594E+002
521.87  1.7261E+002
521.92  1.8114E+002
521.97  1.8467E+002
522.02  1.7767E+002
522.07  1.6227E+002
522.12  1.5661E+002
522.17  1.5814E+002
522.22  1.6514E+002
522.27  1.8081E+002
522.32  1.9594E+002
522.37  2.0521E+002
522.42  2.1261E+002
522.47  2.2041E+002
522.53  2.2827E+002
522.58  2.3594E+002
522.63  2.2981E+002
522.68  2.2927E+002
522.73  2.3494E+002
522.78  2.4181E+002
522.83  2.5574E+002
522.88  2.9527E+002
522.93  3.3867E+002
522.98  3.7541E+002
523.03  3.9961E+002
523.08  4.0847E+002
523.13  3.8801E+002
523.18  3.4474E+002
523.23  3.0227E+002
523.28  2.7694E+002
523.33  2.6094E+002
523.38  2.5134E+002
523.43  2.4461E+002
523.49  2.3134E+002
523.54  2.1327E+002
523.59  1.9967E+002
523.64  1.9801E+002
523.69  1.9867E+002
523.74  2.0281E+002
523.79  2.0881E+002
523.84  2.1754E+002
523.89  2.2234E+002
523.94  2.2361E+002
523.99  2.2621E+002
524.04  2.2107E+002
524.09  2.1181E+002
524.14  1.9627E+002
524.19  2.0047E+002
524.24  2.0474E+002
524.29  2.1254E+002
524.34  2.1574E+002
524.39  2.2247E+002
524.45  2.1861E+002
524.50  2.1927E+002
524.55  2.1794E+002
524.60  2.1414E+002
524.65  2.1241E+002
524.70  2.1361E+002
524.75  2.1694E+002
524.80  2.2294E+002
524.85  2.3161E+002
524.90  2.3934E+002
524.95  2.4087E+002
525.00  2.3174E+002
525.05  2.2407E+002
525.10  2.1707E+002
525.15  2.1461E+002
525.20  2.1821E+002
525.25  2.2587E+002
525.30  2.3194E+002
525.36  2.4134E+002
525.41  2.3607E+002
525.46  2.2094E+002
525.51  2.1261E+002
525.56  2.0954E+002
525.61  2.0661E+002
525.66  2.1347E+002
525.71  2.2607E+002
525.76  2.3367E+002
525.81  2.3521E+002
525.86  2.2654E+002
525.91  2.1981E+002
525.96  2.2254E+002
526.01  2.2634E+002
526.06  2.2727E+002
526.11  2.3567E+002
526.16  2.4374E+002
526.21  2.4947E+002
526.26  2.5427E+002
526.32  2.6494E+002
526.37  2.6747E+002
526.42  2.6867E+002
526.47  2.6667E+002
526.52  2.6361E+002
526.57  2.5574E+002
526.62  2.5294E+002
526.67  2.5021E+002
526.72  2.5894E+002
526.77  2.8061E+002
526.82  3.0621E+002
526.87  3.3234E+002
526.92  3.5421E+002
526.97  3.6247E+002
527.02  3.5707E+002
527.07  3.4901E+002
527.12  3.4681E+002
527.17  3.5027E+002
527.22  3.4321E+002
527.28  3.3901E+002
527.33  3.4327E+002
527.38  3.4247E+002
527.43  3.3594E+002
527.48  3.4154E+002
527.53  3.4461E+002


Note: raman/M9/data/Stokespeak_CaF2.txt
540.50  3.1687E+002
540.55  3.1774E+002
540.60  3.2034E+002
540.65  3.3021E+002
540.71  3.3794E+002
540.76  3.4707E+002
540.81  3.6334E+002
540.86  3.8247E+002
540.91  4.0234E+002
540.96  4.4274E+002
541.01  5.0314E+002
541.06  5.7561E+002
541.11  6.6407E+002
541.16  7.7567E+002
541.21  8.7321E+002
541.26  9.3687E+002
541.31  9.5354E+002
541.36  9.1987E+002
541.41  8.3367E+002
541.46  7.2874E+002
541.51  6.2787E+002
541.56  5.4721E+002
541.61  4.8761E+002
541.66  4.5641E+002
541.71  4.3561E+002
541.76  4.1401E+002
541.81  3.9981E+002
541.87  3.8567E+002
541.92  3.6661E+002
541.97  3.4667E+002
542.02  3.4187E+002
542.07  3.3587E+002
542.12  3.3627E+002
542.17  3.3734E+002
542.22  3.3114E+002
542.27  3.1987E+002
542.32  3.0861E+002
542.37  2.9807E+002
542.42  2.8541E+002
542.47  2.7467E+002
542.52  2.6087E+002

File: Laserpeak_Graphite.txt
520.00  1.9488E+002
520.10  1.9188E+002
520.20  1.6388E+002
520.30  1.4748E+002
520.40  1.6348E+002
520.50  1.9568E+002
520.60  2.0788E+002
520.71  1.9528E+002
520.81  1.8228E+002
520.91  1.8988E+002
521.01  2.0568E+002
521.11  2.1428E+002
521.21  2.1988E+002
521.31  2.3348E+002
521.41  2.2408E+002
521.51  2.1788E+002
521.62  2.2748E+002
521.72  2.3208E+002
521.82  2.2708E+002
521.92  2.1448E+002
522.02  2.4528E+002
522.12  2.6068E+002
522.22  2.7748E+002
522.32  2.8048E+002
522.42  2.6708E+002
522.53  2.2688E+002
522.63  1.9988E+002
522.73  1.9608E+002
522.83  2.2188E+002
522.93  2.4068E+002
523.03  2.4648E+002
523.13  2.2808E+002
523.23  2.2168E+002
523.33  2.4088E+002
523.43  2.5488E+002
523.54  2.7328E+002
523.64  2.6428E+002
523.74  2.3868E+002
523.84  2.2188E+002
523.94  2.2068E+002
524.04  2.3988E+002
524.14  2.6168E+002
524.24  2.5628E+002
524.34  2.4488E+002
524.45  2.6028E+002
524.55  2.6648E+002
524.65  2.6608E+002
524.75  2.4188E+002
524.85  2.2608E+002
524.95  2.3708E+002
525.05  2.6968E+002
525.15  3.0368E+002
525.25  3.0168E+002
525.36  2.5948E+002
525.46  2.2968E+002
525.56  2.5388E+002
525.66  3.0028E+002
525.76  3.2128E+002
525.86  3.0848E+002
525.96  3.1028E+002
526.06  3.3628E+002
526.16  3.5388E+002
526.26  3.6208E+002
526.37  3.6848E+002
526.47  3.5148E+002
526.57  3.2028E+002
526.67  3.1808E+002
526.77  3.3668E+002
526.87  3.7588E+002
526.97  4.3688E+002
527.07  4.5968E+002
527.17  4.2248E+002
527.28  3.8228E+002
527.38  3.8548E+002
527.48  4.3888E+002
527.58  4.9328E+002
527.68  4.7828E+002
527.78  4.5548E+002
527.88  4.7368E+002
527.98  5.5808E+002
528.08  6.2528E+002
528.18  6.8848E+002
528.29  7.0448E+002
528.39  7.0708E+002
528.49  7.2568E+002
528.59  7.4728E+002
528.69  7.6348E+002
528.79  7.8908E+002
528.89  8.2528E+002
528.99  8.7788E+002
529.09  9.3028E+002
529.19  9.8888E+002
529.30  1.0799E+003
529.40  1.1919E+003
529.50  1.2869E+003
529.60  1.3731E+003
529.70  1.4573E+003
529.80  1.6309E+003
529.90  1.8757E+003
530.00  2.2459E+003
530.10  2.5917E+003
530.21  2.8723E+003
530.31  2.9869E+003
530.41  3.0903E+003
530.51  3.5129E+003
530.61  4.4413E+003
530.71  5.4357E+003
530.81  5.9997E+003
530.91  6.3087E+003
531.01  6.9959E+003
533.08  6.4859E+003
533.18  5.5147E+003
533.29  4.7403E+003
533.39  3.9435E+003
533.49  3.3223E+003
533.59  2.9407E+003
533.69  2.5925E+003
533.79  2.2759E+003
533.89  2.0499E+003
533.99  1.9209E+003
534.09  1.8035E+003
534.19  1.6347E+003
534.30  1.4553E+003
534.40  1.3059E+003
534.50  1.1897E+003
534.60  1.0879E+003
534.70  1.0137E+003
534.80  9.3768E+002
534.90  9.1008E+002
535.00  8.7348E+002
535.10  8.2888E+002
535.20  7.8448E+002
535.31  7.3448E+002
535.41  6.9148E+002
535.51  7.0068E+002
535.61  7.2268E+002
535.71  6.4168E+002
535.81  5.7328E+002
535.91  5.5288E+002
536.01  5.6868E+002
536.11  5.3948E+002
536.21  5.0448E+002
536.31  4.6248E+002
536.42  4.5388E+002
536.52  4.4548E+002
536.62  4.4048E+002
536.72  4.3388E+002
536.82  3.9808E+002
536.92  3.7648E+002
537.02  3.8168E+002
537.12  3.7748E+002
537.22  3.6928E+002
537.32  3.5108E+002
537.43  3.4388E+002
537.53  3.4228E+002
537.63  3.4948E+002
537.73  3.6728E+002
537.83  3.9008E+002
537.93  3.6968E+002
538.03  3.3748E+002
538.13  3.3008E+002
538.23  3.2268E+002
538.33  3.2728E+002
538.43  3.3888E+002
538.54  3.3648E+002
538.64  3.2728E+002
538.74  3.2668E+002
538.84  3.4788E+002
538.94  3.6768E+002
539.04  3.7208E+002
539.14  3.2348E+002
539.24  2.8768E+002
539.34  2.7268E+002
539.44  3.0328E+002
539.54  3.3088E+002
539.65  3.3128E+002
539.75  2.8868E+002
539.85  2.7168E+002
539.95  2.6768E+002
540.05  2.8768E+002
540.15  2.7508E+002
540.25  2.6768E+002
540.35  2.6168E+002
540.45  2.6948E+002
540.55  2.7448E+002
540.65  2.8548E+002
540.76  2.8328E+002
540.86  2.5928E+002
540.96  2.5748E+002
541.06  2.5708E+002
541.16  2.7228E+002
541.26  2.9308E+002
541.36  3.0548E+002
541.46  2.8388E+002
541.56  2.6328E+002
541.66  2.5128E+002
541.76  2.6708E+002
541.87  2.7508E+002
541.97  2.5348E+002
542.02  2.4548E+002

File: Stokespeak_Graphite.txt
579.53  1.3748E+002
579.58  1.3348E+002
579.63  1.3368E+002
579.68  1.2988E+002
579.73  1.2888E+002
579.78  1.4228E+002
579.83  1.5388E+002
579.88  4.2528E+002
579.93  8.0308E+002
579.98  9.4348E+002
580.03  9.9188E+002
580.08  1.0075E+003
580.13  7.4348E+002
580.18  3.7088E+002
580.23  2.4708E+002
580.28  2.0808E+002
580.33  1.9048E+002
580.38  1.9868E+002
580.43  2.1128E+002
580.48  2.0888E+002
580.52  2.0668E+002